Folder: iFit/data_bases/gas data

Note: data_bases/gas data/solar_resid (Ben Esse's conflicted copy 2018-10-06).txt
3.050400000000000205e+02 inf
3.050899999999999750e+02 inf
3.051399999999999864e+02 inf
3.051800000000000068e+02 inf
3.052300000000000182e+02 inf
3.052799999999999727e+02 inf
3.053199999999999932e+02 inf
3.053700000000000045e+02 inf
3.054200000000000159e+02 inf
3.054599999999999795e+02 inf
3.055099999999999909e+02 inf
3.055600000000000023e+02 inf
3.056000000000000227e+02 inf
3.056499999999999773e+02 inf
3.056999999999999886e+02 inf
3.057400000000000091e+02 inf
3.057900000000000205e+02 inf
3.058399999999999750e+02 inf
3.058799999999999955e+02 inf
3.059300000000000068e+02 inf
3.059800000000000182e+02 inf
3.060199999999999818e+02 inf
3.060699999999999932e+02 inf
3.061200000000000045e+02 inf
3.061600000000000250e+02 inf
3.062099999999999795e+02 inf
3.062500000000000000e+02 inf
3.063000000000000114e+02 inf
3.063500000000000227e+02 inf
3.063899999999999864e+02 inf
3.064399999999999977e+02 inf
3.064900000000000091e+02 inf
3.065299999999999727e+02 inf
3.065799999999999841e+02 inf
3.066299999999999955e+02 inf
3.066700000000000159e+02 inf
3.067200000000000273e+02 inf
3.067699999999999818e+02 inf
3.068100000000000023e+02 inf
3.068600000000000136e+02 inf
3.069100000000000250e+02 inf
3.069499999999999886e+02 inf
3.070000000000000000e+02 inf
3.070400000000000205e+02 inf
3.070899999999999750e+02 inf
3.071399999999999864e+02 inf
3.071800000000000068e+02 inf
3.072300000000000182e+02 inf
3.072799999999999727e+02 inf
3.073199999999999932e+02 inf
3.073700000000000045e+02 inf
3.074100000000000250e+02 inf
3.074599999999999795e+02 inf
3.075099999999999909e+02 inf
3.075500000000000114e+02 inf
3.076000000000000227e+02 inf
3.076499999999999773e+02 inf
3.076899999999999977e+02 inf
3.077400000000000091e+02 inf
3.077799999999999727e+02 inf
3.078299999999999841e+02 inf
3.078799999999999955e+02 inf
3.079200000000000159e+02 inf
3.079700000000000273e+02 inf
3.080199999999999818e+02 inf
3.080600000000000023e+02 inf
3.081100000000000136e+02 inf
3.081499999999999773e+02 inf
3.081999999999999886e+02 inf
3.082500000000000000e+02 inf
3.082900000000000205e+02 inf
3.083399999999999750e+02 inf
3.083799999999999955e+02 inf
3.084300000000000068e+02 inf
3.084800000000000182e+02 inf
3.085199999999999818e+02 inf
3.085699999999999932e+02 inf
3.086100000000000136e+02 inf
3.086600000000000250e+02 inf
3.087099999999999795e+02 inf
3.087500000000000000e+02 inf
3.088000000000000114e+02 inf
3.088399999999999750e+02 inf
3.088899999999999864e+02 inf
3.089399999999999977e+02 inf
3.089800000000000182e+02 inf
3.090299999999999727e+02 inf
3.090699999999999932e+02 inf
3.091200000000000045e+02 inf
3.091600000000000250e+02 inf
3.092099999999999795e+02 inf
3.092599999999999909e+02 inf
3.093000000000000114e+02 inf
3.093500000000000227e+02 inf
3.093899999999999864e+02 inf
3.094399999999999977e+02 inf
3.094900000000000091e+02 inf
3.095299999999999727e+02 inf
3.095799999999999841e+02 inf
3.096200000000000045e+02 inf
3.096700000000000159e+02 inf
3.097099999999999795e+02 inf
3.097599999999999909e+02 inf
3.09810000000

Note: data_bases/gas data/solar_resid.txt
-inf
-inf
-inf
-inf
-inf
-inf
-inf
-inf
-inf
-inf
-inf
-inf
-inf
-inf
-inf
-inf
-inf
-inf
-inf
-inf
-inf
-inf
-inf
-inf
-inf
-inf
-inf
-inf
-inf
-inf
-inf
-inf
-inf
-inf
-inf
-inf
-inf
-inf
-inf
-inf
-inf
-inf
-inf
-inf
-inf
-inf
-inf
-inf
-inf
-inf
-inf
-inf
-inf
-inf
-inf
-inf
-inf
-inf
-inf
-inf
-inf
-inf
-inf
-inf
-inf
-inf
-inf
-inf
-inf
-inf
-inf
-inf
-inf
-inf
-inf
-inf
-inf
-inf
-inf
-inf
nan
-inf
-inf
-inf
-inf
-inf
-inf
-inf
-inf
-inf
-inf
-inf
-inf
-inf
-inf
-inf
-inf
-inf
-inf
-inf
-inf
-inf
-inf
-inf
-inf
-inf
-inf
-inf
-inf
-inf
-inf
-inf
-inf
-inf
-inf
-inf
-inf
-inf
-inf
-inf
-inf
-inf
-inf
-inf
-inf
-inf
-inf
-inf
-inf
-inf
-inf
-inf
-inf
-inf
-inf
-inf
-inf
-inf
-inf
-inf
-inf
-inf
-inf
-inf
-inf
-inf
-inf
-inf
-inf
-inf
-inf
-inf
-inf
-inf
-inf
-inf
-inf

Note: README.md
# iFit

iFit is a program designed to retrieve SO2 column densities from scattered UV sunlight spectra, with the focus of measuring the SO2 flux from volcanoes. It also allows control of Ocean Optics USB series spectrometers, with simultaneous fitting.

## In Progress
This is version 3.0 and is still in progress. Currently only post analysis is coded, but real time analysis with Ocean Optics spectrometer control is being added.

This update required a significant rewrite of the iFit software but should make it more user friendly and flexible for future applications.

File: sao2010.txt
# Solar reference spectrum
# Wavelength (nm),       Intensity (Photons s-1 cm-2 nm-1)
200.07 6.21934e+11
202.74 8.86199e+11
205.41 1.38746e+12
208.08 1.6965e+12
210.75 4.51767e+12
213.42 4.57962e+12
216.09 6.20762e+12
218.76 1.97518e+12
221.43 5.92404e+12
224.1 6.71708e+12
226.77 3.70937e+12
229.44 6.77826e+12
232.11 3.62905e+12
234.78 5.30832e+12
237.45 2.94157e+12
240.12 6.98315e+12
242.79 1.20975e+13
245.46 5.70245e+12
248.13 9.16833e+12
250.8 5.12747e+12
253.47 6.42686e+12
256.14 1.36298e+13
258.81 1.69273e+13
261.48 6.8251e+12
264.15 3.79248e+13
266.82 5.53653e+13
269.49 4.94374e+13
272.16 1.02477e+13
274.83 1.88769e+13
277.5 4.4978e+13
280.17 9.78417e+12
282.84 4.08214e+13
285.51 1.7966e+13
288.18 1.93032e+13
290.85 9.762e+13
293.52 8.73399e+13
296.19 1.03762e+14
298.86 4.88658e+13
301.53 1.0863e+14
304.2 1.01531e+14
306.87 7.45926e+13
309.54 1.04464e+14
312.21 9.71331e+13
314.88 1.05946e+14
317.55 1.19542e+14
320.22 1.61067e+14
322.89 6.09973e+13
325.56 1.52867e+14
328.23 1.55665e+14
330.9 1.71972e+14
333.57 1.83062e+14
336.24 5.38447e+13
338.91 1.2757e+14
341.58 5.31669e+13
344.25 1.1515e+14
346.92 2.3483e+14
349.59 2.13985e+14
352.26 1.17439e+14
354.93 1.59874e+14
357.6 1.38881e+14
360.27 2.25558e+14
362.94 2.5899e+14
365.61 2.49385e+14
368.28 2.45106e+14
370.95 2.62116e+14
373.62 6.14285e+13
376.29 2.39179e+14
378.96 2.65758e+14
381.63 2.12916e+14
384.3 1.76504e+14
386.97 2.20756e+14
389.64 1.522e+14
392.31 2.78284e+14
394.98 1.99397e+14
397.65 2.63296e+14
400.32 3.95281e+14
402.99 4.08176e+14
405.66 3.2135e+14
408.33 3.66802e+14
411 3.71789e+14
413.67 4.34779e+14
416.34 4.57822e+14
419.01 3.06561e+14
421.68 2.14884e+14
424.35 3.02306e+14
427.02 4.21571e+14
429.69 4.04975e+14
432.36 4.88455e+14
435.03 4.51143e+14
437.7 3.15117e+14
440.37 5.08052e+14
443.04 5.07431e+14
445.71 3.42859e+14
448.38 4.08068e+14
451.05 4.9936e+14
453.72 2.94757e+14
456.39 5.16316e+14
459.06 5.3247e+14
461.73 4.4874e+14
464.4 5.13878e+14
467.07 4.47244e+14
469.74 5.16612e+14
472.41 5.13078e+14
475.08 5.07378e+14
477.75 4.74583e+14
480.42 4.6728e+14
483.09 4.82936e+14
485.76 4.43519e+14
488.43 5.41228e+14
491.1 4.95526e+14
493.77 4.89098e+14
496.44 5.44288e+14
499.11 5.47128e+14
501.78 4.70763e+14
504.45 5.3513e+14
507.12 5.2811e+14
509.79 5.27932e+14
512.46 4.78004e+14
515.13 5.25327e+14
517.8 4.61587e+14
520.47 5.47654e+14
523.14 4.01284e+14
525.81 5.44746e+14
528.48 4.54064e+14
531.15 5.48117e+14
533.82 4.64546e+14
536.49 5.46676e+14
539.16 5.30351e+14
541.83 5.35492e+14
544.5 5.44672e+14
547.17 5.21031e+14
549.84 5.475e+14
552.51 5.46614e+14
555.18 5.53081e+14
557.85 5.37996e+14
560.52 5.2703e+14
563.19 5.45965e+14
565.86 5.51432e+14
568.53 5.45184e+14
571.2 5.46767e+14
573.87 5.35774e+14
576.54 5.47168e+14
579.21 5.4266e+14
581.88 5.32359e+14
584.55 5.47146e+14
587.22 5.46207e+14
589.89 5.14906e+14
592.56 5.37975e+14
595.23 5.4412e+14
597.9 5.4183e+14
600.57 5.42349e+14
603.24 5.39631e+14
605.91 5.38244e+14
608.58 5.2308e+14
611.25 5.35902e+14
613.92 4.42683e+14
616.59 5.42935e+14
619.26 5.21783e+14
621.93 5.42858e+14
624.6 5.0555e+14
627.27 5.39866e+14
629.94 4.77813e+14
632.61 5.41799e+14
635.28 5.40737e+14
637.95 5.40797e+14
640.62 5.39428e+14
643.29 4.88857e+14
645.96 5.38853e+14
648.63 5.35307e+14
651.3 5.33992e+14
653.97 5.26348e+14
656.64 4.29789e+14
659.31 5.13445e+14
661.98 5.20594e+14
664.65 5.19574e+14
667.32 5.22281e+14
669.99 5.26486e+14
672.66 5.26457e+14
675.33 5.2932e+14
678 5.25292e+14
680.67 5.19879e+14
683.34 5.24023e+14
686.01 4.66551e+14
688.68 5.22974e+14
691.35 5.04864e+14
694.02 5.22022e+14
696.69 5.19568e+14
699.36 5.24317e+14
702.03 5.22194e+14
704.7 5.11556e+14
707.37 4.91708e+14
710.04 5.15602e+14
712.71 5.10664e+14
715.38 5.08223e+14
718.05 5.12006e+14
720.72 5.09178e+14
723.39 5.06803e+14
726.06 5.04031e+14
728.73 4.73415e+14
731.4 4.9234e+14
734.07 4.99482e+14
736.74 4.97483e+14
739.41 4.96389e+14
742.08 4.46203e+14
744.75 4.50474e+14
747.42 4.94838e+14
750.09 4.89098e+14
752.76 4.84863e+14
755.43 4.88819e+14
758.1 4.83031e+14
760.77 4.81118e+14
763.44 4.86962e+14
766.11 4.25283e+14
768.78 4.82952e+14
771.45 4.7652e+14
774.12 4.77366e+14
776.79 4.74018e+14
779.46 4.72672e+14
782.13 4.71444e+14
784.8 4.71792e+14
787.47 4.69264e+14
790.14 4.72036e+14
792.81 4.50358e+14
795.48 4.67284e+14
798.15 4.64891e+14
800.82 4.63869e+14
803.49 4.61249e+14
806.16 4.654e+14
808.83 4.60644e+14
811.5 4.66658e+14
814.17 4.62945e+14
816.84 4.58209e+14
819.51 4.54033e+14
822.18 4.48853e+14
824.85 4.58141e+14
827.52 4.55883e+14
830.19 4.52897e+14
832.86 4.47357e+14
835.53 4.5024e+14
838.2 4.50167e+14
840.87 4.49444e+14
843.54 4.45917e+14
846.21 4.41163e+14
848.88 4.40767e+14
851.55 4.37223e+14
854.22 3.34986e+14
856.89 4.36813e+14
859.56 4.12484e+14
862.23 4.39666e+14
864.9 4.34847e+14
867.57 4.39047e+14
870.24 4.46087e+14
872.91 4.44428e+14
875.58 4.33528e+14
878.25 4.36084e+14
880.92 2.14432e+14
883.59 4.31358e+14
886.26 4.18929e+14
888.93 4.25124e+14
891.6 4.23544e+14
894.27 4.13649e+14
896.94 4.20856e+14
899.61 4.18307e+14
902.28 4.10888e+14
904.95 4.17291e+14
907.62 4.15124e+14
910.29 3.77824e+14
912.96 4.14185e+14
915.63 4.07756e+14
918.3 4.08742e+14
920.97 4.03064e+14
923.64 3.98916e+14
926.31 4.00761e+14
928.98 3.87168e+14
931.65 4.06035e+14
934.32 4.00327e+14
936.99 4.07858e+14
939.66 3.9156e+14
942.33 3.9206e+14
945 3.87661e+14
947.67 3.9681e+14
950.34 4.01324e+14
953.01 3.91026e+14
955.68 3.88219e+14
958.35 3.89191e+14
961.02 3.94751e+14
963.69 3.43401e+14
966.36 3.90948e+14
969.03 3.88761e+14
971.7 3.87388e+14
974.37 3.86451e+14
977.04 3.84433e+14
979.71 3.79744e+14
982.38 3.80094e+14
985.05 3.77554e+14
987.72 3.72584e+14
990.39 3.75326e+14
993.06 3.73708e+14
995.73 3.71836e+14
998.4 3.73023e+14
1000.99 3.71203e+14